{
  "resourceType": "Bundle",
  "id": "bundle-HenryJones",
  "type": "transaction",
  "entry": [
    {
      "fullUrl": "CarePlan/carePlan-hj",
      "search": {
        "mode": "match"
      },
      "resource": {
        "resourceType": "CarePlan",
        "id": "carePlan-hj",
        "meta": {
          "profile": [
            "http://hl7.org/fhir/us/eltss/StructureDefinition/CarePlan-eltss"
          ]
        },
        "status": "active",
        "intent": "plan",
        "category": [
          {
            "coding": [
              {
                "system": "http://snomed.info/sct",
                "code": "734163000",
                "display": "Care plan"
              }
            ]
          }
        ],
        "title": "Annual:Manual Entry",
        "subject": {
          "reference": "Patient/henry-jones",
          "type": "Patient",
          "display": "Henry Jones"
        },
        "encounter": {
          "reference": "Encounter/encounter-hj-1",
          "type": "Encounter"
        },
        "period": {
          "start": "2021-05-01T00:00:00Z",
          "end": "2022-04-30T00:00:00Z"
        },
        "created": "2021-09-10T00:00:00Z",
        "author": {
          "reference": "Practitioner/practitioner-hj-1",
          "display": "Stacy Haile"
        },
        "addresses": [
          {
            "reference": "Condition/condition-hj-1",
            "type": "Condition"
          },
          {
            "reference": "Condition/condition-hj-2",
            "type": "Condition"
          },
          {
            "reference": "Condition/condition-hj-3",
            "type": "Condition"
          }
        ],
        "supportingInfo": [

          {
            "reference": "Organization/organization-hj-1",
            "type": "Organization"
          },
          {
            "reference": "Practitioner/practitioner-hj-2",
            "type": "Practitioner"
          },
          {
            "reference": "EpisodeOfCare/episodeOfCare-hj-1",
            "type": "EpisodeOfCare"
          },
          {
            "reference": "Coverage/coverage-hj-1",
            "type": "Coverage"
          },
          {
            "reference": "Observation/observation-hj-1",
            "type": "Observation"
          },
          {
            "reference": "Observation/observation-hj-2",
            "type": "Observation"
          },
          {
            "reference": "Questionnaire/PersonCenteredPlanningQuestionnaire",
            "type": "Questionnaire"
          },
          {
            "reference": "QuestionnaireResponse/questionnaireResponse-hj-1",
            "type": "QuestionnaireResponse"
          },
          {
            "reference": "RiskAssessment/riskAssessment-hj-1",
            "type": "RiskAssessment"
          },
          {
            "reference": "RiskAssessment/riskAssessment-hj-2",
            "type": "RiskAssessment"
          },
          {
            "reference": "RiskAssessment/riskAssessment-hj-3",
            "type": "RiskAssessment"
          },
          {
            "reference": "Contract/contract-hj-1",
            "type": "Contract"
          },
          {
            "reference": "Location/location-hj-1",
            "type": "Location"
          },
          {
            "reference": "Claim/claim-hj-1",
            "type": "Claim"
          },
          {
            "reference": "Claim/claim-hj-2",
            "type": "Claim"
          },
          {
            "reference": "Claim/claim-hj-3",
            "type": "Claim"
          }
        ],
        "goal": [
          {
            "reference": "Goal/goal-hj-1",
            "type": "Goal"
          },
          {
            "reference": "Goal/goal-hj-2",
            "type": "Goal"
          }
        ],
        "activity": [
          {
            "reference": {
              "reference": "ServiceRequest/serviceRequest-hj-1",
              "type": "ServiceRequest"
            }
          },
          {
            "reference": {
              "reference": "ServiceRequest/serviceRequest-hj-2",
              "type": "ServiceRequest"
            }
          },
          {
            "reference": {
              "reference": "ServiceRequest/serviceRequest-hj-3",
              "type": "ServiceRequest"
            }
          }
        ]
      },
      "request": {
        "method": "PUT",
        "url": "CarePlan/carePlan-hj"
      }
    },
    {
      "fullUrl": "Patient/henry-jones",
      "search": {
        "mode": "match"
      },
      "resource": {
        "resourceType": "Patient",
        "id": "henry-jones",
        "meta": {
          "profile": [
            "http://hl7.org/fhir/us/eltss/StructureDefinition/Patient-eltss"
          ]
        },
        "extension": [
          {
            "extension": [
              {
                "url": "ombCategory",
                "valueCoding": {
                  "system": "urn:oid:2.16.840.1.113883.6.238",
                  "code": "2106-3",
                  "display": "White"
                }
              },
              {
                "url": "text",
                "valueString": "White"
              }
            ],
            "url": "http://hl7.org/fhir/us/core/StructureDefinition/us-core-race"
          },
          {
            "extension": [
              {
                "url": "ombCategory",
                "valueCoding": {
                  "system": "urn:oid:2.16.840.1.113883.6.238",
                  "code": "2186-5",
                  "display": "Not Hispanic or Latino"
                }
              },
              {
                "url": "text",
                "valueString": "Not Hispanic or Latino"
              }
            ],
            "url": "http://hl7.org/fhir/us/core/StructureDefinition/us-core-ethnicity"
          }
        ],
        "identifier": [
          {
            "type": {
              "coding": [
                {
                  "system": "http://terminology.hl7.org/CodeSystem/v2-0203",
                  "code": "DL"
                }
              ]
            },
            "value": "A1231231231"
          },
          {
            "type": {
              "coding": [
                {
                  "system": "http://terminology.hl7.org/CodeSystem/v2-0203",
                  "code": "MA"
                }
              ]
            },
            "value": "123456789"
          },
          {
            "type": {
              "coding": [
                {
                  "system": "http://terminology.hl7.org/CodeSystem/v2-0203",
                  "code": "MB"
                }
              ]
            },
            "value": "12344321"
          },
          {
            "type": {
              "coding": [
                {
                  "system": "http://terminology.hl7.org/CodeSystem/v2-0203",
                  "code": "MC"
                }
              ]
            },
            "value": "987654321"
          },
          {
            "type": {
              "coding": [
                {
                  "system": "http://terminology.hl7.org/CodeSystem/v2-0203",
                  "code": "SS"
                }
              ]
            },
            "value": "836563980"
          }
        ],
        "active": true,
        "name": [
          {
            "use": "official",
            "family": "Jones",
            "given": [
              "Henry"
            ],
            "prefix": [
              "Mr"
            ]
          }
        ],
        "telecom": [
          {
            "system": "phone",
            "value": "314-555-2021",
            "use": "mobile"
          }
        ],
        "gender": "male",
        "birthDate": "1993-04-01",
        "address": [
          {
            "use": "home",
            "type": "postal",
            "text": "123 Lake St., St. Clair, Missouri-63077",
            "line": [
              "123 Lake St.,"
            ],
            "city": "St. Clair",
            "district": "Franklin County",
            "state": "Missouri",
            "postalCode": "63077",
            "country": "USA"
          }
        ],
        "contact": [
          {
            "relationship": [
              {
                "coding": [
                  {
                    "system": "http://terminology.hl7.org/CodeSystem/v2-0131",
                    "code": "C",
                    "display": "Emergency Contact"
                  }
                ]
              }
            ],
            "name": {
              "text": "Linda Jones",
              "family": "Jones",
              "given": [
                "Linda"
              ]
            },
            "telecom": [
              {
                "system": "phone",
                "value": "314-555-1212",
                "use": "mobile"
              }
            ],
            "organization": {
              "reference": "Organization/organization-hj-1",
              "type": "Organization",
              "display": "Job Avenue Specialists"
            }
          }
        ]
      },
      "request": {
        "method": "PUT",
        "url": "Patient/henry-jones"
      }
    },
    {
      "fullUrl": "Organization/organization-hj-1",
      "search": {
        "mode": "match"
      },
      "resource": {
        "resourceType": "Organization",
        "id": "organization-hj-1",
        "identifier": [
          {
            "use": "usual",
            "type": {
              "coding": [
                {
                  "code": "ACSN"
                }
              ]
            },
            "system": "urn:ietf:rfc:3986",
            "value": "organization-hj-1"
          }
        ],
        "name": "Job Avenue Specialists",
        "telecom": [
          {
            "system": "phone",
            "value": "314-555-9999",
            "use": "work"
          }
        ]
      },
      "request": {
        "method": "PUT",
        "url": "Organization/organization-hj-1"
      }
    },
    {
      "fullUrl": "Practitioner/practitioner-hj-1",
      "search": {
        "mode": "match"
      },
      "resource": {
        "resourceType": "Practitioner",
        "id": "practitioner-hj-1",
        "meta": {
          "profile": [
            "http://hl7.org/fhir/us/eltss/StructureDefinition/Practitioner-eltss"
          ]
        },
        "name": [
          {
            "use": "usual",
            "text": "Stacy Haile",
            "family": "Haile",
            "given": [
              "Stacy"
            ]
          }
        ],
        "telecom": [
          {
            "system": "phone",
            "value": "314-555-8888",
            "use": "temp"
          }
        ]
      },
      "request": {
        "method": "PUT",
        "url": "Practitioner/practitioner-hj-1"
      }
    },
    {
      "fullUrl": "Practitioner/practitioner-hj-2",
      "search": {
        "mode": "match"
      },
      "resource": {
        "resourceType": "Practitioner",
        "id": "practitioner-hj-2",
        "meta": {
          "profile": [
            "http://hl7.org/fhir/us/eltss/StructureDefinition/Practitioner-eltss"
          ]
        },
        "name": [
          {
            "use": "usual",
            "text": "Stacy Haile",
            "family": "Haile",
            "given": [
              "Stacy"
            ]
          }
        ],
        "telecom": [
          {
            "system": "phone",
            "value": "314-555-8888",
            "use": "temp"
          }
        ]
      },
      "request": {
        "method": "PUT",
        "url": "Practitioner/practitioner-hj-2"
      }
    },
    {
      "fullUrl": "EpisodeOfCare/episodeOfCare-hj-1",
      "search": {
        "mode": "match"
      },
      "resource": {
        "resourceType": "EpisodeOfCare",
        "id": "episodeOfCare-hj-1",
        "meta": {
          "profile": [
            "http://hl7.org/fhir/us/eltss/StructureDefinition/EpisodeOfCare-eltss"
          ]
        },
        "status": "active",
        "patient": {
          "reference": "Patient/henry-jones",
          "type": "Patient",
          "display": "Henry Jones"
        },
        "managingOrganization": {
          "reference": "Organization/organization-hj-1",
          "type": "Organization",
          "display": "Job Avenue Specialists"
        },
        "careManager": {
          "reference": "Practitioner/practitioner-hj-2",
          "type": "Practitioner",
          "display": "Stacy Haile"
        }
      },
      "request": {
        "method": "PUT",
        "url": "EpisodeOfCare/episodeOfCare-hj-1"
      }
    },
    {
      "fullUrl": "Encounter/encounter-hj-1",
      "search": {
        "mode": "match"
      },
      "resource": {
        "resourceType": "Encounter",
        "id": "encounter-hj-1",
        "status": "in-progress",
        "class": {
          "system": "http://terminology.hl7.org/CodeSystem/v3-ActCode",
          "code": "AMB",
          "display": "ambulatory"
        },
        "episodeOfCare": [
          {
            "reference": "EpisodeOfCare/episodeOfCare-hj-1",
            "type": "EpisodeOfCare"
          }
        ]
      },
      "request": {
        "method": "PUT",
        "url": "Encounter/encounter-hj-1"
      }
    },
    {
      "fullUrl": "Coverage/coverage-hj-1",
      "search": {
        "mode": "match"
      },
      "resource": {
        "resourceType": "Coverage",
        "id": "coverage-hj-1",
        "status": "active",
        "beneficiary": {
          "reference": "Patient/henry-jones",
          "type": "Patient",
          "display": "Henry Jones"
        },
        "payor": [
          {
            "display": "None Specified"
          }
        ]
      },
      "request": {
        "method": "PUT",
        "url": "Coverage/coverage-hj-1"
      }
    },
    {
      "fullUrl": "Goal/goal-hj-1",
      "search": {
        "mode": "match"
      },
      "resource": {
        "resourceType": "Goal",
        "id": "goal-hj-1",
        "meta": {
          "profile": [
            "http://hl7.org/fhir/us/eltss/StructureDefinition/Goal-eltss"
          ]
        },
        "lifecycleStatus": "active",
        "achievementStatus": {
          "coding": [
            {
              "system": "http://hl7.org/fhir/ValueSet/goal-achievement",
              "code": "in-progress",
              "display": "In Progress"
            }
          ]
        },
        "description": {
          "text": "Henry wants to be employed."
        },
        "subject": {
          "reference": "Patient/henry-jones",
          "type": "Patient",
          "display": "Henry Jones"
        },
        "startDate": "2021-09-08"
      },
      "request": {
        "method": "PUT",
        "url": "Goal/goal-hj-1"
      }
    },
    {
      "fullUrl": "Goal/goal-hj-2",
      "search": {
        "mode": "match"
      },
      "resource": {
        "resourceType": "Goal",
        "id": "goal-hj-2",
        "meta": {
          "profile": [
            "http://hl7.org/fhir/us/eltss/StructureDefinition/Goal-eltss"
          ]
        },
        "lifecycleStatus": "active",
        "achievementStatus": {
          "coding": [
            {
              "system": "http://hl7.org/fhir/ValueSet/goal-achievement",
              "code": "in-progress",
              "display": "In Progress"
            }
          ]
        },
        "description": {
          "text": "Henry wants to be healthy."
        },
        "subject": {
          "reference": "Patient/henry-jones",
          "type": "Patient",
          "display": "Henry Jones"
        },
        "startDate": "2021-09-08"
      },
      "request": {
        "method": "PUT",
        "url": "Goal/goal-hj-2"
      }
    },
    {
      "fullUrl": "Condition/condition-hj-1",
      "search": {
        "mode": "match"
      },
      "resource": {
        "resourceType": "Condition",
        "id": "condition-hj-1",
        "meta": {
          "profile": [
            "http://hl7.org/fhir/us/eltss/StructureDefinition/Condition-eltss"
          ]
        },
        "category": [
          {
            "coding": [
              {
                "system": "http://hl7.org/fhir/us/eLTSS/CodeSystem/eltss-condition-category-code",
                "code": "assessed-need"
              }
            ]
          }
        ],
        "code": {
          "text": "Henry has a need to work to earn money to purchase a new TV and additional fishing rods."
        },
        "subject": {
          "reference": "Patient/henry-jones",
          "type": "Patient",
          "display": "Henry Jones"
        }
      },
      "request": {
        "method": "PUT",
        "url": "Condition/condition-hj-1"
      }
    },
    {
      "fullUrl": "Condition/condition-hj-2",
      "search": {
        "mode": "match"
      },
      "resource": {
        "resourceType": "Condition",
        "id": "condition-hj-2",
        "meta": {
          "profile": [
            "http://hl7.org/fhir/us/eltss/StructureDefinition/Condition-eltss"
          ]
        },
        "category": [
          {
            "coding": [
              {
                "system": "http://hl7.org/fhir/us/eLTSS/CodeSystem/eltss-condition-category-code",
                "code": "assessed-need"
              }
            ]
          }
        ],
        "code": {
          "text": "He has a need for nutritional services to eat healthier and have more energy."
        },
        "subject": {
          "reference": "Patient/henry-jones",
          "type": "Patient",
          "display": "Henry Jones"
        }
      },
      "request": {
        "method": "PUT",
        "url": "Condition/condition-hj-2"
      }
    },
    {
      "fullUrl": "Condition/condition-hj-3",
      "search": {
        "mode": "match"
      },
      "resource": {
        "resourceType": "Condition",
        "id": "condition-hj-3",
        "meta": {
          "profile": [
            "http://hl7.org/fhir/us/eltss/StructureDefinition/Condition-eltss"
          ]
        },
        "category": [
          {
            "coding": [
              {
                "system": "http://hl7.org/fhir/us/eLTSS/CodeSystem/eltss-condition-category-code",
                "code": "assessed-need"
              }
            ]
          }
        ],
        "code": {
          "text": "Henry has a need for transportation services to get to work."
        },
        "subject": {
          "reference": "Patient/henry-jones",
          "type": "Patient",
          "display": "Henry Jones"
        }
      },
      "request": {
        "method": "PUT",
        "url": "Condition/condition-hj-3"
      }
    },
    {
      "fullUrl": "Observation/observation-hj-1",
      "search": {
        "mode": "match"
      },
      "resource": {
        "resourceType": "Observation",
        "id": "observation-hj-1",
        "meta": {
          "profile": [
            "http://hl7.org/fhir/us/eltss/StructureDefinition/Observation-eltss"
          ]
        },
        "status": "registered",
        "code": {
          "coding": [
            {
              "system": "http://hl7.org/us/eLTSS/CodeSystem/eltss-observation-code",
              "code": "strength"
            }
          ],
          "text": "Mobility, Ability to lift and carry objects, Attention to detail"
        },
        "subject": {
          "reference": "Patient/henry-jones",
          "type": "Patient",
          "display": "Henry Jones"
        },
        "valueString": "Mobility, Ability to lift and carry objects, Attention to detail"
      },
      "request": {
        "method": "PUT",
        "url": "Observation/observation-hj-1"
      }
    },
    {
      "fullUrl": "Observation/observation-hj-2",
      "search": {
        "mode": "match"
      },
      "resource": {
        "resourceType": "Observation",
        "id": "observation-hj-2",
        "meta": {
          "profile": [
            "http://hl7.org/fhir/us/eltss/StructureDefinition/Observation-eltss"
          ]
        },
        "status": "registered",
        "category": [
          {
            "text": "My Life Today"
          }
        ],
        "code": {
          "coding": [
            {
              "system": "http://hl7.org/us/eLTSS/CodeSystem/eltss-observation-code",
              "code": "preference"
            }
          ],
          "text": "Henry would like a job that reflects his interests of fishing and gardening. Henry prefers to sleep in and would not like to start his job before 10am."
        },
        "subject": {
          "reference": "Patient/henry-jones",
          "type": "Patient",
          "display": "Henry Jones"
        },
        "valueString": "Henry would like a job that reflects his interests of fishing and gardening. Henry prefers to sleep in and would not like to start his job before 10am."
      },
      "request": {
        "method": "PUT",
        "url": "Observation/observation-hj-2"
      }
    },
    {
      "fullUrl": "Questionnaire/PersonCenteredPlanningQuestionnaire",
      "search": {
        "mode": "match"
      },
      "resource": {
        "resourceType": "Questionnaire",
        "id": "PersonCenteredPlanningQuestionnaire",
        "meta": {
          "profile": [
            "http://hl7.org/fhir/us/eltss/StructureDefinition/Questionnaire-eltss"
          ]
        },
        "url": "Questionnaire/PersonCenteredPlanningQuestionnaire",
        "name": "Person Centered Planning Questionnaire",
        "status": "active",
        "item": [
          {
            "id": "ServicePlanAgreementIndicator",
            "linkId": "ServicePlanAgreementIndicator",
            "text": "Person agrees to the services outlined in the plan.",
            "type": "boolean"
          },
          {
            "id": "ServiceSelectionIndicator",
            "linkId": "ServiceSelectionIndicator",
            "text": "Person participated in the selection of the services outlined in the plan.",
            "type": "boolean"
          },
          {
            "id": "ServiceOptionsGivenIndicator",
            "linkId": "ServiceOptionsGivenIndicator",
            "text": "Person was given a choice of services outlined in the plan.",
            "type": "boolean"
          },
          {
            "id": "ServiceProviderOptionsGivenIndicator",
            "linkId": "ServiceProviderOptionsGivenIndicator",
            "text": "Person was offered a choice of providers for each service.",
            "type": "boolean"
          },
          {
            "id": "ServiceProviderSelectionAgreementIndicator",
            "linkId": "ServiceProviderSelectionAgreementIndicator",
            "text": "Person feels he/she made an informed choice in selecting the provider for each service.",
            "type": "boolean"
          }
        ]
      },
      "request": {
        "method": "PUT",
        "url": "Questionnaire/PersonCenteredPlanningQuestionnaire"
      }
    },
    {
      "fullUrl": "QuestionnaireResponse/questionnaireResponse-hj-1",
      "search": {
        "mode": "match"
      },
      "resource": {
        "resourceType": "QuestionnaireResponse",
        "id": "questionnaireResponse-hj-1",
        "questionnaire": "Questionnaire/PersonCenteredPlanningQuestionnaire",
        "status": "completed",
        "subject": {
          "reference": "Patient/henry-jones",
          "display": "Henry Jones"
        },
        "item": [
          {
            "linkId": "ServicePlanAgreementIndicator",
            "text": "Person agrees to the services outlined in the plan.",
            "answer": [
              {
                "valueBoolean": true
              }
            ]
          },
          {
            "linkId": "ServiceSelectionIndicator",
            "text": "Person participated in the selection of the services outlined in the plan.",
            "answer": [
              {
                "valueBoolean": true
              }
            ]
          },
          {
            "linkId": "ServiceOptionsGivenIndicator",
            "text": "Person was given a choice of services outlined in the plan.",
            "answer": [
              {
                "valueBoolean": true
              }
            ]
          },
          {
            "linkId": "ServiceProviderOptionsGivenIndicator",
            "text": "Person was offered a choice of providers for each service.",
            "answer": [
              {
                "valueBoolean": true
              }
            ]
          },
          {
            "linkId": "ServiceProviderSelectionAgreementIndicator",
            "text": "Person feels he/she made an informed choice in selecting the provider for each service.",
            "answer": [
              {
                "valueBoolean": true
              }
            ]
          }
        ]
      },
      "request": {
        "method": "PUT",
        "url": "QuestionnaireResponse/questionnaireResponse-hj-1"
      }
    },
    {
      "fullUrl": "RiskAssessment/riskAssessment-hj-1",
      "search": {
        "mode": "match"
      },
      "resource": {
        "resourceType": "RiskAssessment",
        "id": "riskAssessment-hj-1",
        "meta": {
          "profile": [
            "http://hl7.org/fhir/us/eltss/StructureDefinition/RiskAssessment-eltss"
          ]
        },
        "status": "registered",
        "subject": {
          "reference": "Patient/henry-jones",
          "display": "Henry Jones"
        },
        "prediction": [
          {
            "outcome": {
              "text": "History of anti-social behavior"
            }
          }
        ],
        "mitigation": "Home visits and parent training"
      },
      "request": {
        "method": "PUT",
        "url": "RiskAssessment/riskAssessment-hj-1"
      }
    },
    {
      "fullUrl": "RiskAssessment/riskAssessment-hj-2",
      "search": {
        "mode": "match"
      },
      "resource": {
        "resourceType": "RiskAssessment",
        "id": "riskAssessment-hj-2",
        "meta": {
          "profile": [
            "http://hl7.org/fhir/us/eltss/StructureDefinition/RiskAssessment-eltss"
          ]
        },
        "status": "registered",
        "subject": {
          "reference": "Patient/henry-jones",
          "display": "Henry Jones"
        },
        "prediction": [
          {
            "outcome": {
              "text": "Seasonal allergies"
            }
          }
        ],
        "mitigation": "Meet with primary care provider to discuss inhaler usage and steroids"
      },
      "request": {
        "method": "PUT",
        "url": "RiskAssessment/riskAssessment-hj-2"
      }
    },
    {
      "fullUrl": "RiskAssessment/riskAssessment-hj-3",
      "search": {
        "mode": "match"
      },
      "resource": {
        "resourceType": "RiskAssessment",
        "id": "riskAssessment-hj-3",
        "meta": {
          "profile": [
            "http://hl7.org/fhir/us/eltss/StructureDefinition/RiskAssessment-eltss"
          ]
        },
        "status": "registered",
        "subject": {
          "reference": "Patient/henry-jones",
          "display": "Henry Jones"
        },
        "prediction": [
          {
            "outcome": {
              "text": "Asthma"
            }
          }
        ],
        "mitigation": "Meet with primary care provider to discuss antihistamine medication"
      },
      "request": {
        "method": "PUT",
        "url": "RiskAssessment/riskAssessment-hj-3"
      }
    },
    {
      "fullUrl": "Contract/contract-hj-1",
      "search": {
        "mode": "match"
      },
      "resource": {
        "resourceType": "Contract",
        "id": "contract-hj-1",
        "meta": {
          "profile": [
            "http://hl7.org/fhir/us/eltss/StructureDefinition/Contract-eltss"
          ]
        },
        "subject": [
          {
            "reference": "Patient/henry-jones",
            "type": "Patient",
            "display": "Henry Jones"
          }
        ],
        "signer": [
          {
            "type": {
              "system": "http://terminology.hl7.org/CodeSystem/contractsignertypecodes",
              "code": "PAT"
            },
            "party": {
              "reference": "Patient/henry-jones",
              "type": "Patient",
              "display": "HENRY JONES"
            },
            "signature": [
              {
                "id": "6E6E0883-E0E2-4A65-9020-AD9F00BD3D59",
                "type": [
                  {
                    "system": "urn:iso-astm:E1762-95:2013",
                    "code": "1.2.840.10065.1.12.1.7"
                  }
                ],
                "when": "2021-09-10T00:00:00+00:00",
                "who": {
                  "reference": "Patient/henry-jones",
                  "type": "Patient",
                  "display": "HENRY JONES"
                },
                "targetFormat": "image/png",
                "sigFormat": "image/png",
                "data": ""
              }
            ]
          },
          {
            "type": {
              "system": "http://terminology.hl7.org/CodeSystem/contractsignertypecodes",
              "code": "AUT"
            },
            "party": {
              "reference": "Practitioner/practitioner-hj-2",
              "type": "Practitioner",
              "display": "STACY HAILE"
            },
            "signature": [
              {
                "id": "18628C4B-8D11-4CB3-805C-AD9F00BD3D5B",
                "type": [
                  {
                    "system": "urn:iso-astm:E1762-95:2013",
                    "code": "1.2.840.10065.1.12.1.1"
                  }
                ],
                "when": "2021-09-10T00:00:00+00:00",
                "who": {
                  "reference": "Practitioner/practitioner-hj-2",
                  "type": "Practitioner",
                  "display": "STACY HAILE"
                },
                "targetFormat": "image/png",
                "sigFormat": "image/png",
                "data": ""
              }
            ]
          },
          {
            "type": {
              "system": "http://terminology.hl7.org/CodeSystem/contractsignertypecodes",
              "code": "HPROV"
            },
            "party": {
              "reference": "Organization/organization-hj-1",
              "type": "Organization",
              "display": "JOHN GOMEZ"
            },
            "signature": [
              {
                "id": "1C47F615-7C65-4542-8FD6-AD9F00BD3D5D",
                "type": [
                  {
                    "system": "urn:iso-astm:E1762-95:2013",
                    "code": "1.2.840.10065.1.12.1.3"
                  }
                ],
                "when": "2021-09-10T00:00:00+00:00",
                "who": {
                  "reference": "Organization/organization-hj-1",
                  "type": "Organization",
                  "display": "JOHN GOMEZ"
                },
                "targetFormat": "image/png",
                "sigFormat": "image/png",
                "data": ""
              }
            ]
          }
        ]
      },
      "request": {
        "method": "PUT",
        "url": "Contract/contract-hj-1"
      }
    },
    {
      "fullUrl": "Location/location-hj-1",
      "search": {
        "mode": "match"
      },
      "resource": {
        "resourceType": "Location",
        "id": "location-hj-1",
        "meta": {
          "profile": [
            "http://hl7.org/fhir/us/eltss/StructureDefinition/Location-eltss"
          ]
        },
        "name": "Job Avenue Specialists Office",
        "description": "Provider Location address",
        "address": {
          "use": "work",
          "type": "physical",
          "text": "100 Employment Street, Missouri-65256",
          "line": [
            "100 Employment Street,"
          ],
          "district": "Boone County",
          "state": "Missouri",
          "postalCode": "65256",
          "country": "USA"
        }
      },
      "request": {
        "method": "PUT",
        "url": "Location/location-hj-1"
      }
    },
    {
      "fullUrl": "Claim/claim-hj-1",
      "search": {
        "mode": "match"
      },
      "resource": {
        "resourceType": "Claim",
        "id": "claim-hj-1",
        "meta": {
          "profile": [
            "http://hl7.org/fhir/us/eltss/StructureDefinition/Claim-eltss"
          ]
        },
        "status": "active",
        "type": {
          "coding": [
            {
              "system": "http://terminology.hl7.org/CodeSystem/claim-type",
              "code": "professional"
            }
          ],
          "text": "professional"
        },
        "use": "claim",
        "patient": {
          "reference": "Patient/henry-jones",
          "type": "Patient",
          "display": "Henry Jones"
        },
        "created": "2021-09-10T00:00:00Z",
        "provider": {
          "reference": "Organization/organization-hj-1"
        },
        "priority": {
          "text": "normal"
        },
        "insurance": [
          {
            "sequence": 1,
            "focal": false,
            "coverage": {
              "reference": "Coverage/coverage-hj-1",
              "type": "Coverage",
              "display": "Community Support Waiver"
            }
          }
        ],
        "item": [
          {
            "sequence": 1,
            "productOrService": {
              "coding": [
                {
                  "system": "urn:oid:2.16.840.1.113883.6.14",
                  "code": "T2019"
                }
              ],
              "text": "Career Planning"
            },
            "unitPrice": {
              "value": 9.6,
              "currency": "USD"
            },
            "net": {
              "value": 2304,
              "currency": "USD"
            }
          }
        ]
      },
      "request": {
        "method": "PUT",
        "url": "Claim/claim-hj-1"
      }
    },
    {
      "fullUrl": "Claim/claim-hj-2",
      "search": {
        "mode": "match"
      },
      "resource": {
        "resourceType": "Claim",
        "id": "claim-hj-2",
        "meta": {
          "profile": [
            "http://hl7.org/fhir/us/eltss/StructureDefinition/Claim-eltss"
          ]
        },
        "status": "active",
        "type": {
          "coding": [
            {
              "system": "http://terminology.hl7.org/CodeSystem/claim-type",
              "code": "professional"
            }
          ],
          "text": "professional"
        },
        "use": "claim",
        "patient": {
          "reference": "Patient/henry-jones",
          "type": "Patient",
          "display": "Henry Jones"
        },
        "created": "2021-09-10T00:00:00Z",
        "provider": {
          "reference": "Organization/organization-hj-1"
        },
        "priority": {
          "text": "normal"
        },
        "insurance": [
          {
            "sequence": 1,
            "focal": false,
            "coverage": {
              "reference": "Coverage/coverage-hj-1",
              "type": "Coverage",
              "display": "Community Support Waiver"
            }
          }
        ],
        "item": [
          {
            "sequence": 1,
            "productOrService": {
              "coding": [
                {
                  "system": "urn:oid:2.16.840.1.113883.6.14",
                  "code": "H2023"
                }
              ],
              "text": "Supported Employment"
            },
            "unitPrice": {
              "value": 11.6,
              "currency": "USD"
            },
            "net": {
              "value": 18560,
              "currency": "USD"
            }
          }
        ]
      },
      "request": {
        "method": "PUT",
        "url": "Claim/claim-hj-2"
      }
    },
    {
      "fullUrl": "Claim/claim-hj-3",
      "search": {
        "mode": "match"
      },
      "resource": {
        "resourceType": "Claim",
        "id": "claim-hj-3",
        "meta": {
          "profile": [
            "http://hl7.org/fhir/us/eltss/StructureDefinition/Claim-eltss"
          ]
        },
        "status": "active",
        "type": {
          "coding": [
            {
              "system": "http://terminology.hl7.org/CodeSystem/claim-type",
              "code": "professional"
            }
          ],
          "text": "professional"
        },
        "use": "claim",
        "patient": {
          "reference": "Patient/henry-jones",
          "type": "Patient",
          "display": "Henry Jones"
        },
        "created": "2021-09-10T00:00:00Z",
        "provider": {
          "reference": "Organization/organization-hj-1"
        },
        "priority": {
          "text": "normal"
        },
        "insurance": [
          {
            "sequence": 1,
            "focal": false,
            "coverage": {
              "reference": "Coverage/coverage-hj-1",
              "type": "Coverage",
              "display": "Community Support Waiver"
            }
          }
        ],
        "item": [
          {
            "sequence": 1,
            "productOrService": {
              "coding": [
                {
                  "system": "urn:oid:2.16.840.1.113883.6.14",
                  "code": "H0038"
                }
              ],
              "text": "Job Development"
            },
            "unitPrice": {
              "value": 9.6,
              "currency": "USD"
            },
            "net": {
              "value": 2304,
              "currency": "USD"
            }
          }
        ]
      },
      "request": {
        "method": "PUT",
        "url": "Claim/claim-hj-3"
      }
    },
    {
      "fullUrl": "ServiceRequest/serviceRequest-hj-1",
      "search": {
        "mode": "match"
      },
      "resource": {
        "resourceType": "ServiceRequest",
        "id": "serviceRequest-hj-1",
        "meta": {
          "profile": [
            "http://hl7.org/fhir/us/eltss/StructureDefinition/ServiceRequest-eltss"
          ]
        },
        "extension": [
          {
            "url": "http://hl7.org/fhir/StructureDefinition/procedure-directedBy",
            "valueCodeableConcept": {
              "text": "Stacy Haile"
            }
          }
        ],
        "status": "active",
        "intent": "plan",
        "code": {
          "coding": [
            {
              "system": "urn:oid:2.16.840.1.113883.6.14",
              "code": "T2019"
            }
          ],
          "text": "Waiver Service:Career Planning"
        },
        "quantityRatio": {
          "numerator": {
            "value": 240,
            "unit": "Unit",
            "system": "http://snomed.info/sct",
            "code": "767525000"
          },
          "denominator": {
            "value": 1,
            "unit": "Year"
          }
        },
        "subject": {
          "reference": "Patient/henry-jones",
          "type": "Patient",
          "display": "Henry Jones"
        },
        "occurrenceTiming": {
          "repeat": {
            "boundsPeriod": {
              "start": "2021-05-01T00:00:00Z",
              "end": "2022-04-30T00:00:00Z"
            }
          }
        },
        "performer": [
          {
            "reference": "Organization/organization-hj-1",
            "type": "Organization"
          }
        ],
        "locationReference": [
          {
            "reference": "Location/location-hj-1",
            "type": "Location"
          }
        ],
        "insurance": [
          {
            "reference": "Coverage/coverage-hj-1",
            "type": "Coverage",
            "display": "Community Support Waiver"
          }
        ],
        "supportingInfo": [
          {
            "reference": "Claim/claim-hj-1",
            "type": "Claim"
          }
        ],
        "note": [
          {
            "text": "None Documented"
          }
        ]
      },
      "request": {
        "method": "PUT",
        "url": "ServiceRequest/serviceRequest-hj-1"
      }
    },
    {
      "fullUrl": "ServiceRequest/serviceRequest-hj-2",
      "search": {
        "mode": "match"
      },
      "resource": {
        "resourceType": "ServiceRequest",
        "id": "serviceRequest-hj-2",
        "meta": {
          "profile": [
            "http://hl7.org/fhir/us/eltss/StructureDefinition/ServiceRequest-eltss"
          ]
        },
        "extension": [
          {
            "url": "http://hl7.org/fhir/StructureDefinition/procedure-directedBy",
            "valueCodeableConcept": {
              "text": "Stacy Haile"
            }
          }
        ],
        "status": "active",
        "intent": "plan",
        "code": {
          "coding": [
            {
              "system": "urn:oid:2.16.840.1.113883.6.14",
              "code": "H2023"
            }
          ],
          "text": "Waiver Service:Supported Employment"
        },
        "quantityRatio": {
          "numerator": {
            "value": 1600,
            "unit": "Unit",
            "system": "http://snomed.info/sct",
            "code": "767525000"
          },
          "denominator": {
            "value": 1,
            "unit": "Year"
          }
        },
        "subject": {
          "reference": "Patient/henry-jones",
          "type": "Patient",
          "display": "Henry Jones"
        },
        "occurrenceTiming": {
          "repeat": {
            "boundsPeriod": {
              "start": "2021-07-01T00:00:00Z",
              "end": "2022-04-30T00:00:00Z"
            }
          }
        },
        "performer": [
          {
            "reference": "Organization/organization-hj-1",
            "type": "Organization"
          }
        ],
        "locationReference": [
          {
            "reference": "Location/location-hj-1",
            "type": "Location"
          }
        ],
        "insurance": [
          {
            "reference": "Coverage/coverage-hj-1",
            "type": "Coverage",
            "display": "Community Support Waiver"
          }
        ],
        "supportingInfo": [
          {
            "reference": "Claim/claim-hj-2",
            "type": "Claim"
          }
        ],
        "note": [
          {
            "text": "None Documented"
          }
        ]
      },
      "request": {
        "method": "PUT",
        "url": "ServiceRequest/serviceRequest-hj-2"
      }
    },
    {
      "fullUrl": "ServiceRequest/serviceRequest-hj-3",
      "search": {
        "mode": "match"
      },
      "resource": {
        "resourceType": "ServiceRequest",
        "id": "serviceRequest-hj-3",
        "meta": {
          "profile": [
            "http://hl7.org/fhir/us/eltss/StructureDefinition/ServiceRequest-eltss"
          ]
        },
        "extension": [
          {
            "url": "http://hl7.org/fhir/StructureDefinition/procedure-directedBy",
            "valueCodeableConcept": {
              "text": "Stacy Haile"
            }
          }
        ],
        "status": "active",
        "intent": "plan",
        "code": {
          "coding": [
            {
              "system": "urn:oid:2.16.840.1.113883.6.14",
              "code": "H0038"
            }
          ],
          "text": "Waiver Service:Job Development"
        },
        "quantityRatio": {
          "numerator": {
            "value": 240,
            "unit": "Unit",
            "system": "http://snomed.info/sct",
            "code": "767525000"
          },
          "denominator": {
            "value": 1,
            "unit": "Year"
          }
        },
        "subject": {
          "reference": "Patient/henry-jones",
          "type": "Patient",
          "display": "Henry Jones"
        },
        "occurrenceTiming": {
          "repeat": {
            "boundsPeriod": {
              "start": "2021-09-01T00:00:00Z",
              "end": "2022-04-30T00:00:00Z"
            }
          }
        },
        "performer": [
          {
            "reference": "Organization/organization-hj-1",
            "type": "Organization"
          }
        ],
        "locationReference": [
          {
            "reference": "Location/location-hj-1",
            "type": "Location"
          }
        ],
        "insurance": [
          {
            "reference": "Coverage/coverage-hj-1",
            "type": "Coverage",
            "display": "Community Support Waiver"
          }
        ],
        "supportingInfo": [
          {
            "reference": "Claim/claim-hj-3",
            "type": "Claim"
          }
        ],
        "note": [
          {
            "text": "None Documented"
          }
        ]
      },
      "request": {
        "method": "PUT",
        "url": "ServiceRequest/serviceRequest-hj-3"
      }
    }
  ]
}